<Bundle 
  xmlns="http://hl7.org/fhir">
  <identifier>
    <system value="urn:ietf:rfc:3986"/>
    <value value="urn:uuid:8ed02d0a-2971-11e6-b67b-9e71128cae77"/>
  </identifier>
  <type value="document"/>
  <timestamp value="2012-02-04T14:00:00+01:00"/>
  <entry>
    <fullUrl value="urn:uuid:8249ae7f-3546-4ca1-9c05-cdd8948dfcc4"/>
    <resource>
      <Composition>
        <language value="de-CH"/>
        <extension url="http://fhir.ch/ig/ch-core/StructureDefinition/ch-ext-epr-informationrecipient">
          <valueReference>
            <reference value="urn:uuid:59b9172e-eff7-4129-b561-4b3775d98069"/>
          </valueReference>
        </extension>
        <identifier>
          <system value="urn:ietf:rfc:3986"/>
          <value value="urn:uuid:8ed02d0a-2971-11e6-b67b-9e71128cae77"/>
        </identifier>
        <status value="final"/>
        <type>
          <coding>
            <system value="http://loinc.org"/>
            <code value="61356-2"/>
            <display value="Medication pharmaceutical advice.extended"/>
          </coding>
          <coding>
            <system value="http://snomed.info/sct"/>
            <code value="419891008"/>
            <display value="Record artifact (record artifact)"/>
          </coding>
        </type>
        <subject>
          <reference value="urn:uuid:667524df-4673-4651-a291-9776c005f92b"/>
        </subject>
        <date value="2012-02-04T14:00:00+01:00"/>
        <author>
          <extension url="http://fhir.ch/ig/ch-core/StructureDefinition/ch-ext-epr-time">
            <valueDateTime value="2012-02-04T14:00:00+01:00"/>
          </extension>
          <reference value="urn:uuid:9016ddfe-70f1-4bb5-86c5-6055a5c75a4e"/>
        </author>
        <author>
          <reference value="urn:uuid:ca92ecd4-511c-44ee-abc0-2c951e0aabbc"/>
        </author>
        <title value="Kommentar zur Medikation"/>
        <confidentiality value="N">
          <extension url="http://fhir.ch/ig/ch-core/StructureDefinition/ch-ext-epr-confidentialitycode">
            <valueCodeableConcept>
              <coding>
                <system value="http://snomed.info/sct"/>
                <code value="17621005"/>
                <display value="Normally accessible"/>
              </coding>
            </valueCodeableConcept>
          </extension>
        </confidentiality>
        <custodian>
          <reference value="urn:uuid:02311067-dc7e-467c-89f5-5523ccd414f8"/>
        </custodian>
        <section>
          <title value="Hinweise zur Medikation"/>
          <code>
            <coding>
              <system value="http://loinc.org"/>
              <code value="61357-0"/>
              <display value="Medication pharmaceutical advice.brief"/>
            </coding>
          </code>
          <text>
            <status value="generated"/>
            <div 
              xmlns="http://www.w3.org/1999/xhtml">
              <table>
                <thead>
                  <tr>
                    <th>Präpartename</th>
                    <th>Wirkstoffname</th>
                    <th>Galenische Form</th>
                    <th>Dosis pro Einheit</th>
                    <th>Dosierung</th>
                    <th>Dos.Morgen</th>
                    <th>Dos.Mittag</th>
                    <th>Dos.Abend</th>
                    <th>Dos.Nacht</th>
                    <th>Verabreichungsweg</th>
                    <th>Anwendungsdauer</th>
                    <th>Behandlungsgrund</th>
                    <th>Kommentar</th>
                  </tr>
                </thead>
                <tbody>
                  <tr id="padv.1">
                    <td id="padv.1.brandedmedication">Triatec</td>
                    <td id="padv.1.ingredient">Ramipril</td>
                    <td id="padv.1.packageform">Tbl</td>
                    <td id="padv.1.dosequantity">2.5 mg</td>
                    <td id="padv.1.dosageintakemode">Morgens 1/2 Tablette nehmen</td>
                    <td id="padv.1.dosagemorning">0.5</td>
                    <td id="padv.1.dosagelunch">0</td>
                    <td id="padv.1.dosageevening">0</td>
                    <td id="padv.1.dosagenight">0</td>
                    <td id="padv.1.routecode">oral</td>
                    <td id="padv.1.datefromto"/>
                    <td id="padv.1.reason">Bluthochdruck</td>
                    <td id="padv.1.note">Abgesetzt aufgrund UAW trockener Husten</td>
                  </tr>
                </tbody>
              </table>
            </div>
          </text>
          <entry>
            <reference value="urn:uuid:f9d72164-2738-4da0-b1cd-20a601188159"/>
          </entry>
        </section>
      </Composition>
    </resource>
  </entry>
  <entry>
    <fullUrl value="urn:uuid:667524df-4673-4651-a291-9776c005f92b"/>
    <resource>
      <Patient>
        <identifier>
          <type>
            <coding>
              <system value="http://terminology.hl7.org/CodeSystem/v2-0203"/>
              <code value="MR"/>
            </coding>
          </type>
          <system value="urn:oid:2.999"/>
          <value value="11111111"/>
        </identifier>
        <name>
          <family value="Wegmüller"/>
          <given value="Monika"/>
        </name>
        <gender value="female"/>
        <birthDate value="1943-05-15"/>
        <address>
          <line value="Wiesenstr. 12"/>
          <city value="Zürich"/>
          <postalCode value="8003"/>
          <country value="CH"/>
        </address>
      </Patient>
    </resource>
  </entry>
  <entry>
    <fullUrl value="urn:uuid:9016ddfe-70f1-4bb5-86c5-6055a5c75a4e"/>
    <resource>
      <Practitioner>
        <identifier>
          <system value="urn:oid:2.51.1.3"/>
          <value value="7601000234438"/>
        </identifier>
        <name>
          <family value="Hausarzt"/>
          <given value="Familien"/>
        </name>
      </Practitioner>
    </resource>
  </entry>
  <entry>
    <fullUrl value="urn:uuid:ca92ecd4-511c-44ee-abc0-2c951e0aabbc"/>
    <resource>
      <Organization>
        <identifier>
          <system value="urn:oid:2.51.1.3"/>
          <value value="7601000234438"/>
        </identifier>
        <name value="Hausarzt"/>
        <address>
          <line value="Krankenstrasse 2"/>
          <city value="Zürich"/>
          <postalCode value="8005"/>
          <country value="CH"/>
        </address>
      </Organization>
    </resource>
  </entry>
  <entry>
    <fullUrl value="urn:uuid:02311067-dc7e-467c-89f5-5523ccd414f8"/>
    <resource>
      <Organization>
        <identifier>
          <system value="urn:oid:2.51.1.3"/>
          <value value="7601000234438"/>
        </identifier>
        <name value="Hausarzt"/>
      </Organization>
    </resource>
  </entry>
  <entry>
    <fullUrl value="urn:uuid:59b9172e-eff7-4129-b561-4b3775d98069"/>
    <resource>
      <Patient>
        <name>
          <family value="Wegmüller"/>
          <given value="Monika"/>
        </name>
        <address>
          <line value="Wiesenstr. 12"/>
          <city value="Zürich"/>
          <postalCode value="8003"/>
          <country value="CH"/>
        </address>
      </Patient>
    </resource>
  </entry>
  <entry>
    <fullUrl value="urn:uuid:f9d72164-2738-4da0-b1cd-20a601188159"/>
    <resource>
      <Observation>
        <extension url="http://fhir.ch/ig/ch-emed/StructureDefinition/ch-emed-ext-treatmentplan">
          <extension url="id">
            <valueIdentifier>
              <system value="urn:ietf:rfc:3986"/>
              <value value="urn:uuid:c9f758a1-296c-4710-84d4-e181db8c7478"/>
            </valueIdentifier>
          </extension>
          <extension url="externalDocumentId">
            <valueIdentifier>
              <system value="urn:ietf:rfc:3986"/>
              <value value="urn:uuid:c9f758a1-296c-4710-84d4-e181db8c7478"/>
            </valueIdentifier>
          </extension>
        </extension>
        <identifier>
          <system value="urn:ietf:rfc:3986"/>
          <value value="urn:uuid:8ed02d0a-2971-11e6-b67b-9e71128cae77"/>
        </identifier>
        <status value="final"/>
        <code>
          <coding>
            <system value="urn:oid:1.3.6.1.4.1.19376.1.9.2.1"/>
            <code value="CANCEL"/>
          </coding>
        </code>
        <subject>
          <reference value="urn:uuid:667524df-4673-4651-a291-9776c005f92b"/>
        </subject>
        <effectiveDateTime value="2012-02-04T14:00:00+01:00"/>
        <note>
          <extension url="http://hl7.org/fhir/StructureDefinition/narrativeLink">
            <valueUrl value="#padv.1.note"/>
          </extension>
          <text value="Abgesetzt aufgrund UAW trockener Husten"/>
        </note>
      </Observation>
    </resource>
  </entry>
</Bundle>