<Bundle 
  xmlns="http://hl7.org/fhir">
  <identifier>
    <system value="urn:ietf:rfc:3986"/>
    <value value="urn:uuid:11778932-3d19-486b-afe6-e32a1165c978"/>
  </identifier>
  <type value="document"/>
  <timestamp value="2018-02-06T16:57:00+01:00"/>
  <entry>
    <fullUrl value="urn:uuid:ad259df6-3618-4956-9baf-64c4090b4bec"/>
    <resource>
      <Composition>
        <language value="en-US"/>
        <extension url="http://fhir.ch/ig/ch-core/StructureDefinition/ch-ext-epr-versionnumber">
          <valueUnsignedInt value="1"/>
        </extension>
        <extension url="http://fhir.ch/ig/ch-core/StructureDefinition/ch-ext-epr-informationrecipient">
          <valueReference>
            <reference value="urn:uuid:b31bbbeb-0211-441a-ab07-060cd19ace5c"/>
            <type value="Organization"/>
          </valueReference>
        </extension>
        <extension url="http://fhir.ch/ig/ch-core/StructureDefinition/ch-ext-epr-dataenterer">
          <extension url="enterer">
            <valueReference>
              <reference value="urn:uuid:b5130ffa-dd5c-4107-8698-b9d5439fdf24"/>
            </valueReference>
          </extension>
          <extension url="http://fhir.ch/ig/ch-core/StructureDefinition/ch-ext-epr-time">
            <valueDateTime value="2017-10-03T13:15:00+01:00"/>
          </extension>
        </extension>
        <identifier>
          <system value="urn:ietf:rfc:3986"/>
          <value value="urn:uuid:11778932-3d19-486b-afe6-e32a1165c978"/>
        </identifier>
        <status value="final"/>
        <type>
          <coding>
            <system value="http://loinc.org"/>
            <code value="28616-1"/>
            <display value="Physician Transfer note"/>
          </coding>
          <coding>
            <system value="http://snomed.info/sct"/>
            <code value="371535009"/>
            <display value="Transfer summary report"/>
          </coding>
        </type>
        <subject>
          <reference value="urn:uuid:30a146b4-90d6-4fcf-b45d-fd256af899d9"/>
          <type value="Patient"/>
        </subject>
        <date value="2018-02-06T16:57:00+01:00"/>
        <author>
          <extension url="http://fhir.ch/ig/ch-core/StructureDefinition/ch-ext-epr-time">
            <valueDateTime value="2017-10-03T16:09:00+01:00"/>
          </extension>
          <reference value="urn:uuid:5bfddd31-fbba-4428-952f-fefd16b9d67a"/>
          <type value="Practitioner"/>
        </author>
        <author>
          <reference value="urn:uuid:35955ed7-5aa5-4209-a488-c2812a4e67ef"/>
          <type value="Organization"/>
        </author>
        <title value="Transfer note for radiological diagnostics"/>
        <confidentiality value="N">
          <extension url="http://fhir.ch/ig/ch-core/StructureDefinition/ch-ext-epr-confidentialitycode">
            <valueCodeableConcept>
              <coding>
                <system value="http://snomed.info/sct"/>
                <code value="17621005"/>
                <display value="Normally accessible"/>
              </coding>
            </valueCodeableConcept>
          </extension>
        </confidentiality>
        <attester>
          <mode value="legal"/>
          <time value="2017-10-03"/>
          <party>
            <reference value="urn:uuid:3c8ef79a-bbb3-49dc-b0c5-5f389e5ebae4"/>
            <type value="Practitioner"/>
          </party>
        </attester>
        <custodian>
          <reference value="urn:uuid:e6c73de0-4298-40bf-8892-c091f28a765e"/>
          <type value="Organization"/>
        </custodian>
        <section>
          <title value="Ordered diagnostics"/>
          <text>
            <status value="generated"/>
            <div 
              xmlns="http://www.w3.org/1999/xhtml">
              <span>
							The patient is awaiting your invitation.
                <br/>
              </span>
              <span style="font-style: italic">
							Specification of the desired examination
                <br/>
              </span>
            </div>
          </text>
        </section>
        <section>
          <title value="Urgency / preferred date"/>
          <text>
            <status value="generated"/>
            <div 
              xmlns="http://www.w3.org/1999/xhtml">
              <span style="font-style: italic">
							Information on the preferred date
						</span>
            </div>
          </text>
        </section>
        <section>
          <title value="Question"/>
          <text>
            <status value="generated"/>
            <div 
              xmlns="http://www.w3.org/1999/xhtml">
              <span style="font-style: italic">
							Reason for the examination and information on the current conditions
						</span>
            </div>
          </text>
        </section>
        <section>
          <title value="Information about the patient"/>
          <text>
            <status value="generated"/>
            <div 
              xmlns="http://www.w3.org/1999/xhtml">
              <span style="font-style: italic">
							Successful preliminary examinations
                <br/>
							Diagnostic copy - receiver
                <br/>
              </span>
            </div>
          </text>
        </section>
        <section>
          <title value="Clinical information"/>
          <text>
            <status value="generated"/>
            <div 
              xmlns="http://www.w3.org/1999/xhtml">
              <span style="font-style: italic">
							Description of the current conditions
                <br/>
							Pregnancy (yes / no)
                <br/>
							Laboratory results (Quick / Tc, creatinine)
                <br/>
							Known allergies
                <br/>
              </span>
            </div>
          </text>
        </section>
        <section>
          <title value="Original representation"/>
          <code>
            <coding>
              <system value="http://loinc.org"/>
              <code value="55108-5"/>
              <display value="Clinical presentation"/>
            </coding>
          </code>
          <text>
            <status value="generated"/>
            <div 
              xmlns="http://www.w3.org/1999/xhtml">
						Representation of the original view which has been signed by the legal authenticator:
						
              <img src="pdf1"/>
            </div>
          </text>
          <entry>
            <extension url="http://hl7.org/fhir/StructureDefinition/narrativeLink">
              <valueUrl value="pdf1"/>
            </extension>
            <reference value="urn:uuid:4f3a157d-1d5a-4378-9aa1-94266c89e771"/>
            <type value="Binary"/>
          </entry>
        </section>
      </Composition>
    </resource>
  </entry>
  <entry>
    <fullUrl value="urn:uuid:30a146b4-90d6-4fcf-b45d-fd256af899d9"/>
    <resource>
      <Patient>
        <identifier>
          <type>
            <coding>
              <system value="http://terminology.hl7.org/CodeSystem/v2-0203"/>
              <code value="MR"/>
            </coding>
          </type>
          <system value="urn:oid:2.999"/>
          <value value="8733"/>
        </identifier>
        <name>
          <family value="DOE"/>
          <given value="John"/>
        </name>
        <telecom>
          <system value="phone"/>
          <value value="+41.32.685.12.34"/>
          <use value="home"/>
        </telecom>
        <telecom>
          <system value="phone"/>
          <value value="+41.32.123.77.88"/>
          <use value="work"/>
        </telecom>
        <telecom>
          <system value="email"/>
          <value value="john.doe@sampledomain.ch"/>
          <use value="work"/>
        </telecom>
        <gender value="male"/>
        <birthDate value="1948-06-11"/>
        <address>
          <use value="home"/>
          <line value="suffering avenue"/>
          <line value="10"/>
          <city value="Specimentown"/>
          <postalCode value="9876"/>
          <country value="CH"/>
        </address>
        <managingOrganization>
          <reference value="urn:uuid:81d14368-b0f8-4048-8ee6-4b0fa5c8347e"/>
          <type value="Organization"/>
        </managingOrganization>
      </Patient>
    </resource>
  </entry>
  <entry>
    <fullUrl value="urn:uuid:81d14368-b0f8-4048-8ee6-4b0fa5c8347e"/>
    <resource>
      <Organization>
        <identifier>
          <system value="urn:oid:2.51.1.3"/>
          <value value="7608888888888"/>
        </identifier>
        <name value="Dr. med. Always Ready, Group practice CH"/>
      </Organization>
    </resource>
  </entry>
  <entry>
    <fullUrl value="urn:uuid:5bfddd31-fbba-4428-952f-fefd16b9d67a"/>
    <resource>
      <Practitioner>
        <identifier>
          <system value="urn:oid:2.51.1.3"/>
          <value value="7608888888888"/>
        </identifier>
        <name>
          <family value="Ready"/>
          <given value="Always"/>
          <prefix value="Dr. med."/>
        </name>
      </Practitioner>
    </resource>
  </entry>
  <entry>
    <fullUrl value="urn:uuid:35955ed7-5aa5-4209-a488-c2812a4e67ef"/>
    <resource>
      <Organization>
        <identifier>
          <system value="urn:oid:2.51.1.3"/>
          <value value="7609999999999"/>
        </identifier>
        <name value="Group practice CH"/>
        <telecom>
          <system value="phone"/>
          <value value="+41.32.234.55.66"/>
          <use value="work"/>
        </telecom>
        <telecom>
          <system value="fax"/>
          <value value="+41.32.234.66.77"/>
          <use value="work"/>
        </telecom>
        <telecom>
          <system value="email"/>
          <value value="ready@gruppenpraxis.ch"/>
          <use value="work"/>
        </telecom>
        <telecom>
          <system value="url"/>
          <value value="www.grouppractice.ch"/>
          <use value="work"/>
        </telecom>
        <address>
          <use value="work"/>
          <line value="doctors street"/>
          <line value="2"/>
          <city value="Samplecity"/>
          <postalCode value="8888"/>
          <country value="CH"/>
        </address>
      </Organization>
    </resource>
  </entry>
  <entry>
    <fullUrl value="urn:uuid:3c8ef79a-bbb3-49dc-b0c5-5f389e5ebae4"/>
    <resource>
      <Practitioner>
        <identifier>
          <system value="urn:oid:2.51.1.3"/>
          <value value="7607777777777"/>
        </identifier>
        <name>
          <family value="Ready"/>
          <given value="Always"/>
          <prefix value="Dr. med."/>
        </name>
      </Practitioner>
    </resource>
  </entry>
  <entry>
    <fullUrl value="urn:uuid:e6c73de0-4298-40bf-8892-c091f28a765e"/>
    <resource>
      <Organization>
        <identifier>
          <system value="urn:oid:2.51.1.3"/>
          <value value="7608888888888"/>
        </identifier>
        <name value="Group practice CH, Dr. med. Always Ready, General practitioner"/>
        <address>
          <use value="work"/>
          <line value="Doctors street"/>
          <line value="2"/>
          <city value="Samplecity"/>
          <postalCode value="8888"/>
          <country value="CH"/>
        </address>
      </Organization>
    </resource>
  </entry>
  <entry>
    <fullUrl value="urn:uuid:b31bbbeb-0211-441a-ab07-060cd19ace5c"/>
    <resource>
      <Organization>
        <name value="RoDiag Radiology Institute"/>
        <address>
          <use value="work"/>
          <line value="Raystreet"/>
          <line value="1"/>
          <city value="Samplecity"/>
          <postalCode value="8888"/>
          <country value="CH"/>
        </address>
      </Organization>
    </resource>
  </entry>
  <entry>
    <fullUrl value="urn:uuid:b5130ffa-dd5c-4107-8698-b9d5439fdf24"/>
    <resource>
      <PractitionerRole>
        <practitioner>
          <reference value="urn:uuid:a320e823-69b9-41b2-b749-e0e632d6dd53"/>
        </practitioner>
        <organization>
          <reference value="urn:uuid:14ae7456-f08f-4ded-9d99-2d88077bce55"/>
        </organization>
      </PractitionerRole>
    </resource>
  </entry>
  <entry>
    <fullUrl value="urn:uuid:a320e823-69b9-41b2-b749-e0e632d6dd53"/>
    <resource>
      <Practitioner>
        <identifier>
          <system value="urn:oid:2.999"/>
          <value value="0812763"/>
        </identifier>
        <name>
          <family value="Kristin"/>
          <given value="Stabilo"/>
        </name>
      </Practitioner>
    </resource>
  </entry>
  <entry>
    <fullUrl value="urn:uuid:14ae7456-f08f-4ded-9d99-2d88077bce55"/>
    <resource>
      <Organization>
        <identifier>
          <system value="urn:oid:2.51.1.3"/>
          <value value="7609999999999"/>
        </identifier>
        <name value="Group practice CH"/>
        <telecom>
          <system value="phone"/>
          <value value="+41.32.234.55.66"/>
          <use value="work"/>
        </telecom>
        <telecom>
          <system value="fax"/>
          <value value="+41.32.234.66.77"/>
          <use value="work"/>
        </telecom>
        <telecom>
          <system value="email"/>
          <value value="ready@gruppenpraxis.ch"/>
          <use value="work"/>
        </telecom>
        <telecom>
          <system value="url"/>
          <value value="www.grouppractice.ch"/>
          <use value="work"/>
        </telecom>
        <address>
          <use value="work"/>
          <line value="doctors street"/>
          <line value="2"/>
          <city value="Samplecity"/>
          <postalCode value="8888"/>
          <country value="CH"/>
        </address>
      </Organization>
    </resource>
  </entry>
  <entry>
    <fullUrl value="urn:uuid:4f3a157d-1d5a-4378-9aa1-94266c89e771"/>
    <resource>
      <Binary>
        <language value="en-US"/>
        <contentType value="application/pdf"/>
        <data value="==="/>
      </Binary>
    </resource>
  </entry>
</Bundle>