{
    "resourceType": "Bundle",
    "id": "0ebda038-c676-47e2-877c-c4d887c6778a",
    "meta": {
        "profile": ["http://fhir.ch/ig/ch-emed/StructureDefinition/ch-emed-document-medicationcard"]
    },
    "identifier": {
        "system": "urn:ietf:rfc:3986",
        "value": "urn:uuid:0ebda038-c676-47e2-877c-c4d887c6778a"
    },
    "type": "document",
    "timestamp": "2021-03-12T09:46:10+01:00",
    "entry": [{
            "fullUrl": "https://int.documedis.hcisolutions.ch/Composition/0ebda038-c676-47e2-877c-c4d887c6778a",
            "resource": {
                "resourceType": "Composition",
                "id": "0ebda038-c676-47e2-877c-c4d887c6778a",
                "language": "de-CH",
                "extension": [{
                        "url": "http://fhir.ch/ig/ch-core/StructureDefinition/ch-ext-epr-setid",
                        "valueIdentifier": {
                            "system": "urn:ietf:rfc:3986",
                            "value": "urn:uuid:0ebda038-c676-47e2-877c-c4d887c6778a"
                        }
                    }, {
                        "url": "http://fhir.ch/ig/ch-core/StructureDefinition/ch-ext-epr-versionnumber",
                        "valueUnsignedInt": 1
                    }, {
                        "url": "http://fhir.ch/ig/ch-core/StructureDefinition/ch-ext-epr-informationrecipient",
                        "valueReference": {
                            "reference": "Patient/8628881e-b793-44a9-89fd-d4839f92a387"
                        }
                    }
                ],
                "identifier": {
                    "system": "urn:ietf:rfc:3986",
                    "value": "urn:uuid:0ebda038-c676-47e2-877c-c4d887c6778a"
                },
                "status": "final",
                "type": {
                    "coding": [{
                            "system": "http://loinc.org",
                            "code": "56445-0",
                            "display": "Medication summary"
                        }, {
                            "system": "http://snomed.info/sct",
                            "code": "721912009",
                            "display": "Medication summary document (record artifact)"
                        }
                    ]
                },
                "subject": {
                    "reference": "Patient/8628881e-b793-44a9-89fd-d4839f92a387"
                },
                "date": "2021-03-12T09:46:10.000+01:00",
                "author": [{
                        "reference": "Device/Converter-CHMED-EmedFhir"
                    }, {
                        "reference": "Practitioner/3f0cc5e4-5ed2-4a99-89a8-a00ff03a9b19"
                    }
                ],
                "title": "Medikationsplan",
                "confidentiality": "N",
                "_confidentiality": {
                    "extension": [{
                            "url": "http://fhir.ch/ig/ch-core/StructureDefinition/ch-ext-epr-confidentialitycode",
                            "valueCodeableConcept": {
                                "coding": [{
                                        "system": "http://snomed.info/sct",
                                        "code": "17621005",
                                        "display": "Normally accessible"
                                    }
                                ]
                            }
                        }
                    ]
                },
                "custodian": {
                    "reference": "Organization/e2d1c878-872f-4ed6-be0d-9bb998ab03b7"
                },
                "section": [{
                        "extension": [{
                                "url": "http://fhir.ch/ig/ch-core/StructureDefinition/ch-ext-epr-sectionid",
                                "valueIdentifier": {
                                    "system": "urn:ietf:rfc:3986",
                                    "value": "urn:uuid:5fb3eacf-be0d-42aa-9619-abf008c50051"
                                }
                            }
                        ],
                        "title": "Medikamentenliste",
                        "code": {
                            "coding": [{
                                    "system": "http://loinc.org",
                                    "code": "10160-0",
                                    "display": "History of medication use"
                                }
                            ]
                        },
                        "text": {
                            "status": "generated",
                            "div": "<div xmlns=\"http://www.w3.org/1999/xhtml\">See PDF representation</div>"
                        },
                        "entry": [{
                                "reference": "MedicationStatement/d2c6a808-9179-4191-85ae-c662ff4958af"
                            }, {
                                "reference": "MedicationStatement/f5a2e372-afce-447a-a768-749a8207f5e9"
                            }
                        ]
                    }, {
                        "title": "Original representation",
                        "code": {
                            "coding": [{
                                    "system": "http://loinc.org",
                                    "code": "55108-5",
                                    "display": "Clinical presentation"
                                }
                            ]
                        },
                        "text": {
                            "status": "generated",
                            "div": "<div xmlns=\"http://www.w3.org/1999/xhtml\">Representation of the original view:<img src=\"medicationPlan\" /></div>"
                        },
                        "entry": [{
                                "extension": [{
                                        "url": "http://hl7.org/fhir/StructureDefinition/narrativeLink",
                                        "valueUrl": "medicationPlan"
                                    }
                                ],
                                "reference": "Binary/medicationPlan"
                            }
                        ]
                    }
                ]
            }
        }, {
            "fullUrl": "https://int.documedis.hcisolutions.ch/Device/Converter-CHMED-EmedFhir",
            "resource": {
                "resourceType": "Device",
                "id": "Converter-CHMED-EmedFhir",
                "meta": {
                    "profile": ["http://hl7.org/fhir/StructureDefinition/Device"]
                },
                "deviceName": [{
                        "name": "Documedis API - CHMED - EmedFHIR Converter",
                        "type": "user-friendly-name"
                    }
                ],
                "version": [{
                        "value": "1.0.0.0"
                    }
                ]
            }
        }, {
            "fullUrl": "https://int.documedis.hcisolutions.ch/Binary/medicationPlan",
            "resource": {
                "resourceType": "Binary",
                "id": "medicationPlan",
                "language": "de-CH",
                "contentType": "application/pdf",
                "data": ""
            }
        }, {
            "fullUrl": "https://int.documedis.hcisolutions.ch/Practitioner/3f0cc5e4-5ed2-4a99-89a8-a00ff03a9b19",
            "resource": {
                "resourceType": "Practitioner",
                "id": "3f0cc5e4-5ed2-4a99-89a8-a00ff03a9b19",
                "identifier": [{
                        "system": "urn:oid:2.51.1.3",
                        "value": "7601003261554"
                    }
                ],
                "name": [{
                        "family": "Stutz",
                        "given": ["Thomas"]
                    }
                ]
            }
        }, {
            "fullUrl": "https://int.documedis.hcisolutions.ch/Patient/8628881e-b793-44a9-89fd-d4839f92a387",
            "resource": {
                "resourceType": "Patient",
                "id": "8628881e-b793-44a9-89fd-d4839f92a387",
                "identifier": [{
                        "system": "urn:oid:1.3.6.1.4.1.21367.2017.2.5.83",
                        "value": "MAGMED001"
                    }
                ],
                "name": [{
                        "family": "Stutz",
                        "given": ["Thomas"]
                    }
                ],
                "gender": "male",
                "birthDate": "2000-01-01",
                "communication": [{
                        "language": {
                            "coding": [{
                                    "system": "urn:ietf:bcp:47",
                                    "code": "de"
                                }
                            ]
                        }
                    }
                ]
            }
        }, {
            "fullUrl": "https://int.documedis.hcisolutions.ch/Organization/e2d1c878-872f-4ed6-be0d-9bb998ab03b7",
            "resource": {
                "resourceType": "Organization",
                "id": "e2d1c878-872f-4ed6-be0d-9bb998ab03b7",
                "identifier": [{
                        "system": "urn:oid:2.51.1.3",
                        "value": "7601001362383"
                    }
                ],
                "name": "HCI Solutions AG",
                "address": [{
                        "line": ["Untermattweg 8"],
                        "city": "Bern 1",
                        "postalCode": "3000",
                        "country": "CH"
                    }
                ]
            }
        }, {
            "fullUrl": "https://int.documedis.hcisolutions.ch/MedicationStatement/d2c6a808-9179-4191-85ae-c662ff4958af",
            "resource": {
                "resourceType": "MedicationStatement",
                "id": "d2c6a808-9179-4191-85ae-c662ff4958af",
                "contained": [{
                        "resourceType": "Medication",
                        "id": "29a46ef4-262c-4350-bcfd-3b966a56e4c0",
                        "code": {
                            "text": "My magistral formulary"
                        }
                    }
                ],
                "identifier": [{
                        "system": "urn:ietf:rfc:3986",
                        "value": "urn:uuid:d2c6a808-9179-4191-85ae-c662ff4958af"
                    }
                ],
                "status": "completed",
                "medicationReference": {
                    "reference": "#29a46ef4-262c-4350-bcfd-3b966a56e4c0"
                },
                "subject": {
                    "reference": "Patient/8628881e-b793-44a9-89fd-d4839f92a387"
                },
                "informationSource": {
                    "reference": "Practitioner/3f0cc5e4-5ed2-4a99-89a8-a00ff03a9b19"
                },
                "dosage": [{
                        "text": "Am Morgen 1"
                    }, {
                        "timing": {
                            "repeat": {
                                "boundsPeriod": {
                                    "start": "2021-03-06T00:00:00+01:00"
                                },
                                "when": ["CM"]
                            }
                        },
                        "doseAndRate": [{
                                "doseQuantity": {
                                    "value": 1
                                }
                            }
                        ]
                    }
                ]
            }
        }, {
            "fullUrl": "https://int.documedis.hcisolutions.ch/MedicationStatement/f5a2e372-afce-447a-a768-749a8207f5e9",
            "resource": {
                "resourceType": "MedicationStatement",
                "id": "f5a2e372-afce-447a-a768-749a8207f5e9",
                "contained": [{
                        "resourceType": "Medication",
                        "id": "89c49733-18d8-42fb-8b0e-bba54388d706",
                        "code": {
                            "coding": [{
                                    "system": "urn:oid:2.51.1.1",
                                    "code": "7680193950141"
                                }
                            ],
                            "text": "Marcoumar Tabl 3 mg Fl 25 Stk"
                        },
                        "ingredient": [{
                                "itemCodeableConcept": {
                                    "coding": [{
                                            "system": "http://snomed.info/sct",
                                            "code": "59488002",
                                            "display": "Phenprocoumon"
                                        }
                                    ],
                                    "text": "Phenprocoumon"
                                }
                            }
                        ]
                    }
                ],
                "identifier": [{
                        "system": "urn:ietf:rfc:3986",
                        "value": "urn:uuid:f5a2e372-afce-447a-a768-749a8207f5e9"
                    }
                ],
                "status": "completed",
                "medicationReference": {
                    "reference": "#89c49733-18d8-42fb-8b0e-bba54388d706"
                },
                "subject": {
                    "reference": "Patient/8628881e-b793-44a9-89fd-d4839f92a387"
                },
                "informationSource": {
                    "reference": "Practitioner/3f0cc5e4-5ed2-4a99-89a8-a00ff03a9b19"
                },
                "reasonCode": [{
                        "text": "Blutverdünnung"
                    }
                ],
                "note": [{
                        "text": "Take one every two weeks (unstructured dosage)"
                    }
                ],
                "dosage": [{
                        "text": "Take one every two weeks (unstructured dosage)"
                    }
                ]
            }
        }
    ]
}