{
  "resourceType": "Bundle",
  "id": "325",
  "meta": {
    "versionId": "1",
    "lastUpdated": "2021-03-12T10:14:25.730+01:00",
    "profile": [
      "http://fhir.ch/ig/ch-emed/StructureDefinition/ch-emed-document-medicationtreatmentplan"
    ]
  },
  "identifier": {
    "use": "official",
    "system": "urn:ietf:rfc:3986",
    "value": "urn:uuid:22286844-d328-4772-a194-3f5263d70eb2"
  },
  "type": "document",
  "timestamp": "2021-03-12T10:13:24.000+01:00",
  "entry": [
    {
      "fullUrl": "http://fhir.cistec.com/r4/Composition/3bf313f9-0024-4bf2-b0d5-1a430033b7aa",
      "resource": {
        "resourceType": "Composition",
        "id": "3bf313f9-0024-4bf2-b0d5-1a430033b7aa",
        "language": "de-CH",
        "extension": [
          {
            "url": "http://fhir.ch/ig/ch-core/StructureDefinition/ch-ext-epr-versionnumber",
            "valueUnsignedInt": 1
          },
          {
            "url": "http://fhir.ch/ig/ch-core/StructureDefinition/ch-ext-epr-informationrecipient",
            "valueReference": {
              "reference": "Patient/T1623"
            }
          }
        ],
        "identifier": {
          "use": "official",
          "system": "urn:ietf:rfc:3986",
          "value": "urn:uuid:22286844-d328-4772-a194-3f5263d70eb2"
        },
        "status": "final",
        "type": {
          "coding": [
            {
              "system": "http://snomed.info/sct",
              "code": "419891008",
              "display": "Record artifact (record artifact)"
            },
            {
              "system": "http://loinc.org",
              "code": "77603-9",
              "display": "Medication treatment plan.extended"
            }
          ]
        },
        "subject": {
          "reference": "Patient/T1623"
        },
        "date": "2021-03-12T10:13:24+01:00",
        "author": [
          {
            "extension": [
              {
                "url": "http://fhir.ch/ig/ch-core/StructureDefinition/ch-ext-epr-time",
                "valueDateTime": "2021-03-12T10:13:24+01:00"
              }
            ],
            "reference": "Practitioner/CISSZBIN"
          },
          {
            "reference": "Organization/COM"
          }
        ],
        "title": "Therapieentscheid Medikation",
        "confidentiality": "N",
        "_confidentiality": {
          "extension": [
            {
              "url": "http://fhir.ch/ig/ch-core/StructureDefinition/ch-ext-epr-confidentialitycode",
              "valueCodeableConcept": {
                "coding": [
                  {
                    "system": "http://snomed.info/sct",
                    "code": "17621005",
                    "display": "Normally accessible"
                  }
                ]
              }
            }
          ]
        },
        "custodian": {
          "reference": "Organization/COM"
        },
        "section": [
          {
            "title": "Original representation",
            "code": {
              "coding": [
                {
                  "system": "http://loinc.org",
                  "code": "55108-5",
                  "display": "Clinical presentation"
                }
              ]
            },
            "entry": [
              {
                "reference": "Binary/1"
              }
            ]
          },
          {
            "extension": [
              {
                "url": "http://fhir.ch/ig/ch-core/StructureDefinition/ch-ext-epr-sectionid",
                "valueIdentifier": {
                  "system": "urn:ietf:rfc:3986",
                  "value": "urn:uuid:c9f758a1-296c-4710-84d4-e181db8c7478"
                }
              }
            ],
            "title": "Medikamentöser Behandlungsplan",
            "code": {
              "coding": [
                {
                  "system": "http://loinc.org",
                  "code": "77604-7",
                  "display": "Medication treatment plan.brief"
                }
              ]
            },
            "entry": [
              {
                "reference": "MedicationStatement/AGL1906033"
              }
            ]
          }
        ]
      }
    },
    {
      "fullUrl": "http://fhir.cistec.com/r4/Patient/T1623",
      "resource": {
        "resourceType": "Patient",
        "id": "T1623",
        "identifier": [
          {
            "type": {
              "coding": [
                {
                  "system": "http://terminology.hl7.org/CodeSystem/v2-0203",
                  "code": "MR"
                }
              ]
            },
            "system": "urn:oid:2.999",
            "value": "T1623"
          }
        ],
        "name": [
          {
            "family": "Wegmüller",
            "given": [
              "Monika"
            ]
          }
        ],
        "gender": "female",
        "birthDate": "1943-05-15"
      }
    },
    {
      "fullUrl": "http://fhir.cistec.com/r4/Practitioner/CISSZBIN",
      "resource": {
        "resourceType": "Practitioner",
        "id": "CISSZBIN",
        "identifier": [
          {
            "system": "http://cistec.com/DEV_COM/Practitioner",
            "value": "CISSZBIN"
          },
          {
            "system": "urn:oid:2.51.1.3",
            "value": "7601007775286"
          }
        ],
        "name": [
          {
            "family": "Zbinden",
            "given": [
              "Sandro"
            ]
          }
        ],
        "gender": "male"
      }
    },
    {
      "fullUrl": "http://fhir.cistec.com/r4/Organization/COM",
      "resource": {
        "resourceType": "Organization",
        "id": "COM",
        "identifier": [
          {
            "system": "urn:oid:2.999",
            "value": "2.16.756.5.30.1.163.1.1"
          }
        ],
        "type": [
          {
            "coding": [
              {
                "system": "http://snomed.info/sct",
                "code": "22232009",
                "display": "Hospital"
              }
            ]
          }
        ],
        "name": "Cistec COM Spital"
      }
    },
    {
      "fullUrl": "http://fhir.cistec.com/r4/MedicationStatement/AGL1906033",
      "resource": {
        "resourceType": "MedicationStatement",
        "id": "AGL1906033",
        "contained": [
          {
            "resourceType": "Medication",
            "id": "med",
            "code": {
              "coding": [
                {
                  "system": "urn:oid:2.51.1.1",
                  "code": "7680521101306",
                  "display": "Beloc Zok Ret Tabl 50 mg 30 Stk"
                }
              ],
              "text": "Beloc Zok Ret Tabl 50 mg"
            },
            "form": {
              "coding": [
                {
                  "system": "urn:oid:0.4.0.127.0.16.1.1.2.1",
                  "code": "10219000",
                  "display": "Tablet"
                }
              ]
            },
            "amount": {
              "numerator": {
                "value": 30,
                "unit": "piece"
              },
              "denominator": {
                "value": 1
              }
            },
            "ingredient": [
              {
                "itemCodeableConcept": {
                  "coding": [
                    {
                      "system": "http://snomed.info/sct",
                      "code": "372826007",
                      "display": "Metoprolol"
                    }
                  ],
                  "text": "Metoprolol"
                }
              }
            ]
          }
        ],
        "identifier": [
          {
            "use": "official",
            "system": "urn:ietf:rfc:3986",
            "value": "urn:uuid:0bccc900-1799-3625-b58e-0485a6db9511"
          }
        ],
        "status": "active",
        "medicationReference": {
          "reference": "#med"
        },
        "subject": {
          "reference": "Patient/T1623"
        },
        "dosage": [
          {
            "sequence" : 1,
            "timing": {
              "repeat": {
                "boundsPeriod": {
                  "start": "2021-03-12T10:14:24+01:00"
                },
                "when": [
                  "CM"
                ]
              }
            },
            "route": {
              "coding": [
                {
                  "system": "urn:oid:0.4.0.127.0.16.1.1.2.1",
                  "code": "20053000",
                  "display": "zum Einnehmen"
                }
              ]
            },
            "doseAndRate": [
              {
                "doseQuantity": {
                  "value": 1,
                  "unit": "Stk",
                  "system": "http://unitsofmeasure.org",
                  "code": "U{PIECE(S)}"
                }
              }
            ]
          },
          {
            "sequence" : 2,
            "timing": {
              "repeat": {
                "boundsPeriod": {
                  "start": "2021-03-12T10:14:25+01:00"
                },
                "when": [
                  "CV"
                ]
              }
            },
            "route": {
              "coding": [
                {
                  "system": "urn:oid:0.4.0.127.0.16.1.1.2.1",
                  "code": "20053000",
                  "display": "zum Einnehmen"
                }
              ]
            },
            "doseAndRate": [
              {
                "doseQuantity": {
                  "value": 0.5,
                  "unit": "Stk",
                  "system": "http://unitsofmeasure.org",
                  "code": "U{PIECE(S)}"
                }
              }
            ]
          },
          {
            "text": "1 zum Einnehmen (Morgens) 0.5 zum Einnehmen (Abends) RetTabl p.o."
          }
        ]
      }
    },
    {
      "fullUrl": "http://fhir.cistec.com/r4/Binary/1",
      "resource": {
        "resourceType": "Binary",
        "id": "1",
        "language": "de-CH",
        "contentType": "application/pdf",
        "data": "df=="
      }
    }
  ]
}